{
    "resourceType": "Parameters",
    "parameter": [
      {
        "name": "measureReport",
        "resource": {
          "resourceType": "MeasureReport",
          "language": "en",
          "contained": [
            {
              "resourceType": "Observation",
              "id": "sde-observation-B6107A12-4D72-4F7C-B4E8-BA9FC0BE6E9B-coding-2186-5",
              "extension": [
                {
                  "url": "http://hl7.org/fhir/StructureDefinition/cqf-measureInfo",
                  "extension": [
                    {
                      "url": "measure",
                      "valueCanonical": "http://ecqi.healthit.gov/ecqms/Measure/BreastCancerScreeningsFHIR"
                    },
                    {
                      "url": "populationId",
                      "valueString": "sde-ethnicity"
                    }
                  ]
                }
              ],
              "status": "final",
              "code": {
                "text": "sde-ethnicity"
              },
              "valueCodeableConcept": {
                "coding": [
                  {
                    "code": "2186-5"
                  }
                ]
              }
            },
            {
              "resourceType": "Observation",
              "id": "sde-observation-38B58267-B0FA-48C6-BAD6-BEB44FDC456F-coding-2106-3",
              "extension": [
                {
                  "url": "http://hl7.org/fhir/StructureDefinition/cqf-measureInfo",
                  "extension": [
                    {
                      "url": "measure",
                      "valueCanonical": "http://ecqi.healthit.gov/ecqms/Measure/BreastCancerScreeningsFHIR"
                    },
                    {
                      "url": "populationId",
                      "valueString": "sde-race"
                    }
                  ]
                }
              ],
              "status": "final",
              "code": {
                "text": "sde-race"
              },
              "valueCodeableConcept": {
                "coding": [
                  {
                    "code": "2106-3"
                  }
                ]
              }
            },
            {
              "resourceType": "Observation",
              "id": "sde-observation-C91AAEAC-CFE8-49E8-A9A4-C486B886FCE8-code-f",
              "extension": [
                {
                  "url": "http://hl7.org/fhir/StructureDefinition/cqf-measureInfo",
                  "extension": [
                    {
                      "url": "measure",
                      "valueCanonical": "http://ecqi.healthit.gov/ecqms/Measure/BreastCancerScreeningsFHIR"
                    },
                    {
                      "url": "populationId",
                      "valueString": "sde-sex"
                    }
                  ]
                }
              ],
              "status": "final",
              "code": {
                "text": "sde-sex"
              },
              "valueCodeableConcept": {
                "coding": [
                  {
                    "code": "F"
                  }
                ]
              }
            }
          ],
          "extension": [
            {
              "url": "http://hl7.org/fhir/5.0/StructureDefinition/extension-MeasureReport.population.description",
              "valueString": "Percentage of women 50-74 years of age who had a mammogram to screen for breast cancer in the 27 months prior to the end of the Measurement Period"
            }
          ],
          "status": "complete",
          "type": "data-collection",
          "measure": "http://ecqi.healthit.gov/ecqms/Measure/BreastCancerScreeningsFHIR",
          "subject": {
            "reference": "Patient/denom-EXM125"
          },
          "date": "2022-06-07T22:25:10+00:00",
          "period": {
            "start": "2019-01-01T00:00:00+00:00",
            "end": "2019-12-31T23:59:59+00:00"
          },
          "improvementNotation": {
            "coding": [
              {
                "system": "http://terminology.hl7.org/CodeSystem/measure-improvement-notation",
                "code": "increase"
              }
            ]
          },
          "evaluatedResource": [
            {
              "reference": "#sde-observation-B6107A12-4D72-4F7C-B4E8-BA9FC0BE6E9B-coding-2186-5"
            },
            {
              "reference": "#sde-observation-38B58267-B0FA-48C6-BAD6-BEB44FDC456F-coding-2106-3"
            },
            {
              "reference": "#sde-observation-C91AAEAC-CFE8-49E8-A9A4-C486B886FCE8-code-f"
            },
            {
              "extension": [
                {
                  "url": "http://hl7.org/fhir/us/davinci-deqm/StructureDefinition/extension-populationReference",
                  "valueString": "initial-population"
                },
                {
                  "url": "http://hl7.org/fhir/us/davinci-deqm/StructureDefinition/extension-populationReference",
                  "valueString": "denominator-exclusion"
                }
              ],
              "reference": "Patient/denom-EXM125"
            },
            {
              "extension": [
                {
                  "url": "http://hl7.org/fhir/us/davinci-deqm/StructureDefinition/extension-populationReference",
                  "valueString": "initial-population"
                },
                {
                  "url": "http://hl7.org/fhir/us/davinci-deqm/StructureDefinition/extension-populationReference",
                  "valueString": "denominator-exclusion"
                }
              ],
              "reference": "Encounter/denom-EXM125-1"
            }
          ]
        }
      },
      {
        "name": "resource",
        "resource": {
          "resourceType": "Patient",
          "id": "denom-EXM125",
          "meta": {
            "versionId": "1",
            "lastUpdated": "2022-06-06T18:08:37.606+00:00",
            "source": "#ThOOmTsqSwNkCSbf",
            "profile": [
              "http://hl7.org/fhir/us/core/StructureDefinition/us-core-patient"
            ]
          },
          "text": {
            "status": "generated",
            "div": "<div xmlns=\"http://www.w3.org/1999/xhtml\"><div class=\"hapiHeaderText\">June <b>DUNN </b></div><table class=\"hapiPropertyTable\"><tbody><tr><td>Identifier</td><td>999999995</td></tr><tr><td>Date of birth</td><td><span>01 January 1965</span></td></tr></tbody></table></div>"
          },
          "extension": [
            {
              "url": "http://hl7.org/fhir/us/core/StructureDefinition/us-core-race",
              "extension": [
                {
                  "url": "ombCategory",
                  "valueCoding": {
                    "system": "urn:oid:2.16.840.1.113883.6.238",
                    "code": "2106-3",
                    "display": "White"
                  }
                }
              ]
            },
            {
              "url": "http://hl7.org/fhir/us/core/StructureDefinition/us-core-ethnicity",
              "extension": [
                {
                  "url": "ombCategory",
                  "valueCoding": {
                    "system": "urn:oid:2.16.840.1.113883.6.238",
                    "code": "2186-5",
                    "display": "Not Hispanic or Latino"
                  }
                }
              ]
            }
          ],
          "identifier": [
            {
              "use": "usual",
              "type": {
                "coding": [
                  {
                    "system": "http://terminology.hl7.org/CodeSystem/v2-0203",
                    "code": "MR",
                    "display": "Medical Record Number"
                  }
                ]
              },
              "system": "http://hospital.smarthealthit.org",
              "value": "999999995"
            }
          ],
          "name": [
            {
              "family": "Dunn",
              "given": [
                "June"
              ]
            }
          ],
          "gender": "female",
          "birthDate": "1965-01-01"
        }
      },
      {
        "name": "resource",
        "resource": {
          "resourceType": "Encounter",
          "id": "denom-EXM125-1",
          "meta": {
            "versionId": "1",
            "lastUpdated": "2022-06-06T18:08:37.606+00:00",
            "source": "#ThOOmTsqSwNkCSbf",
            "profile": [
              "http://hl7.org/fhir/us/core/StructureDefinition/us-core-encounter"
            ]
          },
          "status": "finished",
          "class": {
            "system": "http://terminology.hl7.org/CodeSystem/v3-ActCode",
            "code": "AMB",
            "display": "ambulatory"
          },
          "type": [
            {
              "coding": [
                {
                  "system": "http://www.ama-assn.org/go/cpt",
                  "code": "99201",
                  "display": "Office or other outpatient visit for the evaluation and management of a new patient, which requires these 3 key components: A problem focused history; A problem focused examination; Straightforward medical decision making. Counseling and/or coordination of care with other physicians, other qualified health care professionals, or agencies are provided consistent with the nature of the problem(s) and the patient's and/or family's needs. Usually, the presenting problem(s) are self limited or minor. Typically, 10 minutes are spent face-to-face with the patient and/or family."
                }
              ]
            }
          ],
          "subject": {
            "reference": "Patient/denom-EXM125"
          },
          "period": {
            "start": "2019-01-16T08:30:00",
            "end": "2019-01-20T08:30:00"
          }
        }
      }
    ]
  }