{
  "resourceType": "MeasureReport",
  "language": "en",
  "contained": [
    {
      "resourceType": "Observation",
      "id": "sde-observation-B6107A12-4D72-4F7C-B4E8-BA9FC0BE6E9B-coding-2186-5",
      "extension": [
        {
          "url": "http://hl7.org/fhir/StructureDefinition/cqf-measureInfo",
          "extension": [
            {
              "url": "measure",
              "valueCanonical": "http://ecqi.healthit.gov/ecqms/Measure/BreastCancerScreeningsFHIR"
            },
            {
              "url": "populationId",
              "valueString": "sde-ethnicity"
            }
          ]
        }
      ],
      "status": "final",
      "code": {
        "text": "sde-ethnicity"
      },
      "valueCodeableConcept": {
        "coding": [
          {
            "code": "2186-5"
          }
        ]
      }
    },
    {
      "resourceType": "Observation",
      "id": "sde-observation-38B58267-B0FA-48C6-BAD6-BEB44FDC456F-coding-2106-3",
      "extension": [
        {
          "url": "http://hl7.org/fhir/StructureDefinition/cqf-measureInfo",
          "extension": [
            {
              "url": "measure",
              "valueCanonical": "http://ecqi.healthit.gov/ecqms/Measure/BreastCancerScreeningsFHIR"
            },
            {
              "url": "populationId",
              "valueString": "sde-race"
            }
          ]
        }
      ],
      "status": "final",
      "code": {
        "text": "sde-race"
      },
      "valueCodeableConcept": {
        "coding": [
          {
            "code": "2106-3"
          }
        ]
      }
    },
    {
      "resourceType": "Observation",
      "id": "sde-observation-C91AAEAC-CFE8-49E8-A9A4-C486B886FCE8-code-f",
      "extension": [
        {
          "url": "http://hl7.org/fhir/StructureDefinition/cqf-measureInfo",
          "extension": [
            {
              "url": "measure",
              "valueCanonical": "http://ecqi.healthit.gov/ecqms/Measure/BreastCancerScreeningsFHIR"
            },
            {
              "url": "populationId",
              "valueString": "sde-sex"
            }
          ]
        }
      ],
      "status": "final",
      "code": {
        "text": "sde-sex"
      },
      "valueCodeableConcept": {
        "coding": [
          {
            "code": "F"
          }
        ]
      }
    }
  ],
  "extension": [
    {
      "url": "http://hl7.org/fhir/5.0/StructureDefinition/extension-MeasureReport.population.description",
      "valueString": "Percentage of women 50-74 years of age who had a mammogram to screen for breast cancer in the 27 months prior to the end of the Measurement Period"
    }
  ],
  "status": "complete",
  "type": "individual",
  "measure": "http://ecqi.healthit.gov/ecqms/Measure/BreastCancerScreeningsFHIR",
  "subject": {
    "reference": "Patient/denom-EXM125"
  },
  "date": "2022-06-08T20:21:09+00:00",
  "period": {
    "start": "2019-01-01T00:00:00+00:00",
    "end": "2019-12-31T23:59:59+00:00"
  },
  "improvementNotation": {
    "coding": [
      {
        "system": "http://terminology.hl7.org/CodeSystem/measure-improvement-notation",
        "code": "increase"
      }
    ]
  },
  "group": [
    {
      "population": [
        {
          "id": "07931086-6B79-4559-917F-9BC0BB55733C",
          "code": {
            "coding": [
              {
                "system": "http://terminology.hl7.org/CodeSystem/measure-population",
                "code": "initial-population",
                "display": "Initial Population"
              }
            ]
          },
          "count": 1
        },
        {
          "id": "E6C83CB6-4DAB-4391-B645-1770A28FDCA9",
          "code": {
            "coding": [
              {
                "system": "http://terminology.hl7.org/CodeSystem/measure-population",
                "code": "denominator",
                "display": "Denominator"
              }
            ]
          },
          "count": 1
        },
        {
          "id": "12B5DBE2-A02B-4859-9C90-78EAAD1868C2",
          "code": {
            "coding": [
              {
                "system": "http://terminology.hl7.org/CodeSystem/measure-population",
                "code": "denominator-exclusion",
                "display": "Denominator Exclusion"
              }
            ]
          },
          "count": 0
        },
        {
          "id": "C0D5541D-B5FA-4B4D-962A-50CC9F32F311",
          "code": {
            "coding": [
              {
                "system": "http://terminology.hl7.org/CodeSystem/measure-population",
                "code": "numerator",
                "display": "Numerator"
              }
            ]
          },
          "count": 0
        }
      ],
      "measureScore": {
        "value": 0
      }
    }
  ],
  "evaluatedResource": [
    {
      "reference": "#sde-observation-B6107A12-4D72-4F7C-B4E8-BA9FC0BE6E9B-coding-2186-5"
    },
    {
      "reference": "#sde-observation-38B58267-B0FA-48C6-BAD6-BEB44FDC456F-coding-2106-3"
    },
    {
      "reference": "#sde-observation-C91AAEAC-CFE8-49E8-A9A4-C486B886FCE8-code-f"
    },
    {
      "extension": [
        {
          "url": "http://hl7.org/fhir/us/davinci-deqm/StructureDefinition/extension-populationReference",
          "valueString": "initial-population"
        },
        {
          "url": "http://hl7.org/fhir/us/davinci-deqm/StructureDefinition/extension-populationReference",
          "valueString": "denominator-exclusion"
        }
      ],
      "reference": "Patient/denom-EXM125"
    },
    {
      "extension": [
        {
          "url": "http://hl7.org/fhir/us/davinci-deqm/StructureDefinition/extension-populationReference",
          "valueString": "initial-population"
        },
        {
          "url": "http://hl7.org/fhir/us/davinci-deqm/StructureDefinition/extension-populationReference",
          "valueString": "denominator-exclusion"
        }
      ],
      "reference": "Encounter/denom-EXM125-1"
    }
  ]
}