{
  "resourceType": "Parameters",
  "parameter": [
    {
      "name": "measureReport",
      "resource": {
        "resourceType": "MeasureReport",
        "contained": [
          {
            "resourceType": "Observation",
            "id": "54d40a27-89b1-4f4c-8244-ed66e00e3c07",
            "extension": [
              {
                "url": "http://hl7.org/fhir/StructureDefinition/cqf-measureInfo",
                "extension": [
                  {
                    "url": "measure",
                    "valueCanonical": "https://madie.cms.gov/Measure/AlaraCTClinicalFHIR"
                  }
                ]
              }
            ],
            "status": "final",
            "code": {
              "coding": [
                {
                  "system": "http://terminology.hl7.org/CodeSystem/measure-data-usage",
                  "code": "supplemental-data"
                }
              ]
            },
            "valueCodeableConcept": {
              "coding": [
                {
                  "code": "Tuple {\n\t\"codes\": [Code { code: 2135-2, system: urn:oid:2.16.840.1.113883.6.238, version: null, display: Hispanic or Latino }]\n\t\"display\": Hispanic or Latino\n}"
                }
              ]
            }
          },
          {
            "resourceType": "Observation",
            "id": "0ca66259-6059-4e6c-8508-5567b5c74560",
            "extension": [
              {
                "url": "http://hl7.org/fhir/StructureDefinition/cqf-measureInfo",
                "extension": [
                  {
                    "url": "measure",
                    "valueCanonical": "https://madie.cms.gov/Measure/AlaraCTClinicalFHIR"
                  }
                ]
              }
            ],
            "status": "final",
            "code": {
              "coding": [
                {
                  "system": "http://terminology.hl7.org/CodeSystem/measure-data-usage",
                  "code": "supplemental-data"
                }
              ]
            },
            "valueCodeableConcept": {
              "coding": [
                {
                  "code": "F"
                }
              ]
            }
          },
          {
            "resourceType": "Observation",
            "id": "eeda87bb-c419-411f-8a9f-21e244e578c3",
            "extension": [
              {
                "url": "http://hl7.org/fhir/StructureDefinition/cqf-measureInfo",
                "extension": [
                  {
                    "url": "measure",
                    "valueCanonical": "https://madie.cms.gov/Measure/AlaraCTClinicalFHIR"
                  }
                ]
              }
            ],
            "status": "final",
            "code": {
              "coding": [
                {
                  "system": "http://terminology.hl7.org/CodeSystem/measure-data-usage",
                  "code": "supplemental-data"
                }
              ]
            },
            "valueCodeableConcept": {
              "coding": [
                {
                  "code": "Tuple {\n\t\"codes\": [Code { code: 2028-9, system: urn:oid:2.16.840.1.113883.6.238, version: null, display: Asian }]\n\t\"display\": Asian\n}"
                }
              ]
            }
          }
        ],
        "extension": [
          {
            "url": "http://hl7.org/fhir/5.0/StructureDefinition/extension-MeasureReport.population.description",
            "valueString": "This measure provides a standardized method for monitoring the performance of diagnostic CT to discourage unnecessarily high radiation doses, a risk factor for cancer, while preserving image quality. It is expressed as a % of patients with CT exams that are out-of-range based on having either excessive radiation dose or inadequate image quality relative to evidence-based thresholds based on the clinical indication for the exam. All diagnostic CT exams of specified anatomic sites performed in inpatient, outpatient and ambulatory care settings are eligible. This measure is not telehealth eligible. This eCQM requires the use of additional software to access primary data elements stored within radiology electronic health records and translate them into data elements that can be ingested by this eCQM. Additional details are included in the Guidance field."
          },
          {
            "url": "http://hl7.org/fhir/5.0/StructureDefinition/extension-MeasureReport.supplementalDataElement.reference",
            "valueReference": {
              "extension": [
                {
                  "url": "http://hl7.org/fhir/us/davinci-deqm/StructureDefinition/extension-criteriaReference",
                  "valueString": "sde-sex"
                }
              ],
              "reference": "#0ca66259-6059-4e6c-8508-5567b5c74560"
            }
          },
          {
            "url": "http://hl7.org/fhir/5.0/StructureDefinition/extension-MeasureReport.supplementalDataElement.reference",
            "valueReference": {
              "extension": [
                {
                  "url": "http://hl7.org/fhir/us/davinci-deqm/StructureDefinition/extension-criteriaReference",
                  "valueString": "sde-race"
                }
              ],
              "reference": "#eeda87bb-c419-411f-8a9f-21e244e578c3"
            }
          },
          {
            "url": "http://hl7.org/fhir/5.0/StructureDefinition/extension-MeasureReport.supplementalDataElement.reference",
            "valueReference": {
              "extension": [
                {
                  "url": "http://hl7.org/fhir/us/davinci-deqm/StructureDefinition/extension-criteriaReference",
                  "valueString": "sde-ethnicity"
                }
              ],
              "reference": "#54d40a27-89b1-4f4c-8244-ed66e00e3c07"
            }
          }
        ],
        "status": "complete",
        "type": "data-collection",
        "measure": "https://madie.cms.gov/Measure/AlaraCTClinicalFHIR|0.4.000",
        "subject": {
          "reference": "Patient/e8029124-d760-40eb-b25a-703e447a3e4d"
        },
        "date": "2024-10-05T02:26:59+00:00",
        "period": {
          "start": "2025-01-01T00:00:00+00:00",
          "end": "2025-12-31T23:59:59+00:00"
        },
        "evaluatedResource": [
          {
            "extension": [
              {
                "url": "http://hl7.org/fhir/us/davinci-deqm/StructureDefinition/extension-criteriaReference",
                "valueString": "2D0D08DB-219D-4C41-AB53-DE21F006D602"
              },
              {
                "url": "http://hl7.org/fhir/us/davinci-deqm/StructureDefinition/extension-criteriaReference",
                "valueString": "BCE3902C-1D78-41A4-A6C6-7913CD71D5F3"
              },
              {
                "url": "http://hl7.org/fhir/us/davinci-deqm/StructureDefinition/extension-criteriaReference",
                "valueString": "3C6FDFA9-8CE2-43E8-97C5-1E8D87F6CBC4"
              },
              {
                "url": "http://hl7.org/fhir/us/davinci-deqm/StructureDefinition/extension-criteriaReference",
                "valueString": "1F700B85-7AB2-4BEE-BC8C-6C08CEF5E660"
              }
            ],
            "reference": "Observation/2a8f86ff-6bf8-4e09-aa03-dc018014c2c5"
          },
          {
            "extension": [
              {
                "url": "http://hl7.org/fhir/us/davinci-deqm/StructureDefinition/extension-criteriaReference",
                "valueString": "2D0D08DB-219D-4C41-AB53-DE21F006D602"
              },
              {
                "url": "http://hl7.org/fhir/us/davinci-deqm/StructureDefinition/extension-criteriaReference",
                "valueString": "BCE3902C-1D78-41A4-A6C6-7913CD71D5F3"
              },
              {
                "url": "http://hl7.org/fhir/us/davinci-deqm/StructureDefinition/extension-criteriaReference",
                "valueString": "3C6FDFA9-8CE2-43E8-97C5-1E8D87F6CBC4"
              },
              {
                "url": "http://hl7.org/fhir/us/davinci-deqm/StructureDefinition/extension-criteriaReference",
                "valueString": "1F700B85-7AB2-4BEE-BC8C-6C08CEF5E660"
              },
              {
                "url": "http://hl7.org/fhir/us/davinci-deqm/StructureDefinition/extension-criteriaReference",
                "valueString": "sde-ethnicity"
              },
              {
                "url": "http://hl7.org/fhir/us/davinci-deqm/StructureDefinition/extension-criteriaReference",
                "valueString": "sde-race"
              },
              {
                "url": "http://hl7.org/fhir/us/davinci-deqm/StructureDefinition/extension-criteriaReference",
                "valueString": "sde-sex"
              }
            ],
            "reference": "Patient/e8029124-d760-40eb-b25a-703e447a3e4d"
          }
        ]
      }
    },
    {
      "name": "resource",
      "resource": {
        "resourceType": "Observation",
        "id": "2a8f86ff-6bf8-4e09-aa03-dc018014c2c5",
        "meta": {
          "versionId": "1",
          "lastUpdated": "2024-09-23T20:37:06.740+00:00",
          "source": "#uDHsMWjBxR6zdE4l",
          "profile": [
            "http://hl7.org/fhir/us/qicore/StructureDefinition/qicore-observation"
          ]
        },
        "status": "final",
        "category": [
          {
            "coding": [
              {
                "system": "http://terminology.hl7.org/CodeSystem/observation-category",
                "code": "imaging",
                "display": "Imaging"
              }
            ]
          }
        ],
        "code": {
          "coding": [
            {
              "system": "http://loinc.org",
              "code": "96914-7",
              "display": "CT dose and image quality category"
            }
          ],
          "text": "CT dose and image quality category"
        },
        "subject": {
          "reference": "Patient/e8029124-d760-40eb-b25a-703e447a3e4d"
        },
        "effectiveDateTime": "2025-01-02T00:00:00.000Z",
        "valueCodeableConcept": {
          "coding": [
            {
              "system": "http://loinc.org",
              "code": "LA31771-1",
              "display": "Full Body"
            }
          ]
        },
        "component": [
          {
            "code": {
              "coding": [
                {
                  "system": "http://loinc.org",
                  "code": "96912-1",
                  "display": "Calculated CT global noise"
                }
              ]
            },
            "valueQuantity": {
              "value": 63,
              "unit": "[hnsf'U]",
              "system": "http://unitsofmeasure.org",
              "code": "[hnsf'U]"
            }
          },
          {
            "code": {
              "coding": [
                {
                  "system": "http://loinc.org",
                  "code": "96913-9",
                  "display": "Calculated CT size-adjusted dose"
                }
              ]
            },
            "valueQuantity": {
              "value": 597,
              "unit": "mGy.cm",
              "system": "http://unitsofmeasure.org",
              "code": "mGy.cm"
            }
          }
        ]
      }
    },
    {
      "name": "resource",
      "resource": {
        "resourceType": "Patient",
        "id": "e8029124-d760-40eb-b25a-703e447a3e4d",
        "meta": {
          "versionId": "1",
          "lastUpdated": "2024-09-23T20:37:06.740+00:00",
          "source": "#uDHsMWjBxR6zdE4l",
          "profile": [
            "http://hl7.org/fhir/us/core/StructureDefinition/us-core-patient",
            "http://hl7.org/fhir/us/qicore/StructureDefinition/qicore-patient"
          ]
        },
        "extension": [
          {
            "url": "http://hl7.org/fhir/us/core/StructureDefinition/us-core-race",
            "extension": [
              {
                "url": "ombCategory",
                "valueCoding": {
                  "system": "urn:oid:2.16.840.1.113883.6.238",
                  "code": "2028-9",
                  "display": "Asian"
                }
              },
              {
                "url": "text",
                "valueString": "Asian"
              }
            ]
          },
          {
            "url": "http://hl7.org/fhir/us/core/StructureDefinition/us-core-ethnicity",
            "extension": [
              {
                "url": "ombCategory",
                "valueCoding": {
                  "system": "urn:oid:2.16.840.1.113883.6.238",
                  "code": "2135-2",
                  "display": "Hispanic or Latino"
                }
              },
              {
                "url": "text",
                "valueString": "Hispanic or Latino"
              }
            ]
          }
        ],
        "identifier": [
          {
            "system": "http://hospital.smarthealthit.org",
            "value": "999999995"
          }
        ],
        "name": [
          {
            "family": "FullBody",
            "given": [
              "DENEXPass"
            ]
          }
        ],
        "gender": "female",
        "birthDate": "1986-06-12"
      }
    }
  ]
}